Folder: PSCmachine_learning/TCP_ML

Note: README.md
# PSCmachine_learning
perovskite solar cells and machine learning

File: Edited_knn_imputed.csv
Cs,FA,MA,I,Br,structure,bandgap,glass,ETL,ETL-2,Ethickness,HTL,Hthickness,meta,depositionProcedure,depositionMethod,Anti-solvent,PrecursorSolution,AnnealingTemperature,AnnealingTime,Jsc,Voc,FF,PCE
0.2,0.664,0.136,2.49,0.51,1,1.67593,FTO,c-TiO2,mp-TiO2,32.8,spiro,150.22,Au,two-step,spin,CB,DMF/DMSO,100.0,60.0,20.8,1.09,0.74,16.8
0.0,0.976,0.024,2.928,0.072,1,1.54726,ITO,SnO2,unknown,28.0,spiro,172.0,Ag,two-step,spin,unknown,DMF/DMSO,150.0,20.0,24.03,1.09,0.6801,18.59
0.1,0.0,0.9,3.0,0.0,0,1.54,ITO,PCBM,unknown,22.0,PEDOT:PSS,205.0,Al,one-step,spin,toluene,GBL/DMF,110.0,10.0,10.1,1.05,0.73,7.68
0.05,0.85,0.15,2.55,0.45,1,1.69477,FTO,Bi-SnO2,unknown,28.0,spiro,172.0,Ag,two-step,spin,EA/HEX,DMF/DMSO,150.0,20.0,23.18,1.118,0.7627,18.49
0.1,0.747,0.153,2.49,0.51,1,1.56477,ITO,SnO2,unknown,72.6,spiro,200.62,Au,two-step,spin,CB,DMF/DMSO,100.0,60.0,23.79,0.984,0.818,19.15
0.1,0.747,0.153,2.49,0.51,1,1.69005,FTO,ALD-TiO2,unknown,34.6,spiro,160.22,Cu,two-step,spin,CB,DMF/DMSO,100.0,60.0,15.1,1.03,0.63,9.8
0.0,0.0,1.0,3.0,0.0,0,1.52,ITO,PCBM,unknown,24.0,PEDOT:PSS,198.0,Al,one-step,spin,toluene,GBL/DMF,110.0,10.0,8.89,0.89,0.7,5.51
0.15,0.7055,0.1445,2.1,0.9,1,1.7,unknown,unknown,unknown,46.2,unknown,108.0,unknown,unknown,unknown,unknown,unknown,110.0,27.0,18.7,1.19,0.802,18.6
0.05,0.85,0.15,2.55,0.45,1,1.69117,FTO,SG-SnO2,unknown,28.0,spiro,172.0,Ag,two-step,spin,EA/HEX,DMF/DMSO,150.0,20.0,22.74,1.078,0.7324,18.16
0.05,0.7885,0.1615,2.54,0.51,1,1.69458,FTO,TiO2,unknown,72.6,spiro,200.62,Au,two-step,spin,CB,DMF/DMSO,100.0,60.0,23.6,1.129,0.767,20.6
0.05,0.7885,0.1615,2.49,0.51,1,1.69706,FTO,c-TiO2,mp-TiO2,40.0,spiro,26.0314,Au,two-step,spin,CB,DMF/DMSO,100.0,60.0,20.038,1.0312,0.725,16.1
0.15,0.7055,0.1445,2.49,0.51,1,1.67811,FTO,c-TiO2,mp-TiO2,30.0,spiro,50.0314,Au,two-step,spin,CB,DMF/DMSO,100.0,60.0,19.4,1.088,0.69,14.6
0.05,0.7885,0.1615,2.49,0.51,1,1.63738,ITO,SnO2,unknown,30.0,spiro,165.0,Ag,one-step,spin,CB,DMF/DMSO,120.0,5.0,20.01,1.14,0.7694,17.48
0.05,0.8075,0.1425,2.55,0.45,1,1.68347,FTO,c-TiO2,mp-TiO2,34.6,RCP–BTT,160.22,Au,three-step,spin,CB,DMF/DMSO,100.0,60.0,14.68,1.08,0.53,8.45
0.0,0.85,0.15,2.55,0.45,1,1.6,ITO,TiO2,unknown,23.2,spiro,104.2,Au,one-step,spin,CB,DMF/DMSO,100.0,10.0,20.77,1.04,0.68,14.08
0.0,0.83,0.17,0.5,2.5,1,2.11,FTO,c-TiO2,mp-TiO2,21.2,spiro,94.0034,Au,two-step,spin,CB,DMF/DMSO,100.0,30.0,8.8,0.88,0.43,3.3
0.05,0.7885,0.1615,2.49,0.51,1,1.6826,ITO,SnO2,unknown,23.2,spiro,104.2,Au,two-step,R2R,CB,DMF/DMSO,100.0,10.0,20.62,1.05,0.7605,16.51
0.15,0.85,0.0,0.9,2.1,1,2.0,ITO,TiO2,unknown,21.2,TaTm,133.0034,Au,one-step,spin,toluene,DMSO,100.0,30.0,1.183,11.36,0.774,10.4
0.05,0.8,0.15,2.5,0.5,1,1.544115,ITO,SnO2,unknown,54.208,spiro,100.048,Au,two-step,spin,CB,DMF/DMSO,100.0,60.0,23.6,1.11,76.0,19.9
0.0,1.0,0.0,2.5,0.5,1,1.97,FTO,c-TiO2,mp-TiO2,21.2,spiro,94.0034,Au,two-step,spin,CB,DMF/DMSO,100.0,30.0,14.3,1.2,0.56,9.6
0.06,0.45,0.49,1.86,0.96,1,1.8,FTO,SnO2,unknown,21.2,spiro,94.0034,C,one-step,VAC,CB,DMF/DMSO,100.0,30.0,9.5,0.96,0.4,5.4
0.15,0.6375,0.2125,2.28,0.72,0,1.71,ITO,C,BCP,22.2,PTAA,94.0034,Cu,two-step,spin,unknown,DMF/NMP,100.0,30.0,18.7,1.09,0.724,14.9
0.05,0.85,0.15,2.55,0.45,1,1.69576,FTO,NP-SnO2,unknown,28.0,spiro,172.0,Ag,two-step,spin,EA/HEX,DMF/DMSO,150.0,20.0,22.27,1.098,0.7296,17.95
0.0,0.15,0.85,3.0,0.0,1,1.70975,FTO,c-TiO2,mp-TiO2,32.6,spiro,150.22,Au,one-step,spin,toluene,DMSO,100.0,60.0,19.9,0.994,0.7332,14.5
0.2,0.32,0.48,2.8,0.2,1,1.65,FTO,TiO2,Al2O3,21.2,NiO,94.0034,C,two-step,spin,unknown,DMF/DMSO,100.0,30.0,12.61,0.889,0.6807,7.64
0.0,0.85,0.15,2.55,0.45,1,1.53797,FTO,TiO2,unknown,36.008,spiro,190.22,Au,two-step,spin,CB,DMF/DMSO,100.0,60.0,22.04,1.0285,0.72,16.3
0.0,0.85,0.15,2.1,0.9,1,1.68,ITO,TiO2,unknown,22.2,spiro,139.2,Au,one-step,spin,CB,DMF/DMSO,100.0,10.0,17.71,1.1,0.65,10.04
0.0,0.0,1.0,1.0,2.0,1,2.03,FTO,c-TiO2,mp-TiO2,21.2,spiro,94.0034,Au,two-step,spin,CB,DMF/DMSO,100.0,30.0,4.0,1.1,1.43,6.3
0.05,0.7885,0.1615,1.5,1.5,1,1.69117,ITO,SnO2,unknown,22.2,spiro,139.2,Au,two-step,R2R,CB,DMF/DMSO,100.0,10.0,15.05,1.12,0.6427,10.81
0.0,0.3,0.7,3.0,0.0,1,1.68431,FTO,c-TiO2,mp-TiO2,32.6,spiro,150.22,Au,one-step,spin,toluene,DMSO,100.0,60.0,19.84,0.899,0.7139,12.73
0.2,0.75,0.05,2.49,0.51,1,1.544115,FTO,c-TiO2,mp-TiO2,31.0,spiro,50.0314,Au,two-step,spin,CB,DMF/DMSO,100.0,60.0,20.4,1.054,0.74,15.9
0.0,0.95,0.05,2.85,0.15,1,1.68724,ITO,SnO2,unknown,28.0,spiro,172.0,Au,two-step,R2R,tBuOH/EA,DMF/DMSO,120.0,30.0,22.0,1.02,0.744,16.7
0.05,0.7885,0.1615,2.49,0.51,1,1.68539,ITO,SnO2,unknown,52.0,spiro,104.0,Au,two-step,spin,CB,DMF/DMSO,110.0,50.0,22.25,1.116,0.768,19.07
0.0,0.4,0.6,3.0,0.0,0,1.55,ITO,C60,PCBM,24.2,NiOx,61.2,Ag,two-step,spin,toluene,DMF/DMSO,100.0,10.0,21.98,1.0,0.72,15.83
0.05,0.7885,0.1615,2.49,0.51,1,1.54116,FTO,c-TiO2,mp-TiO2,24.2,spiro,55.0034,Au,two-step,spin,CB,DMF/DMSO,100.0,30.0,22.4,1.1,0.78,19.2
0.0,0.85,0.15,2.7,0.3,1,1.57,FTO,SnO2,C,40.6,spiro,74.0,Ag,three-step,spin,unknown,DMF/DMSO,100.0,60.0,1.06,21.9,0.72,16.6
0.0,0.3,0.7,0.3,2.7,0,1.63,ITO,C60,PCBM,23.2,NiOx,104.2,Ag,two-step,spin,toluene,DMF/DMSO,100.0,10.0,20.21,1.1,0.78,17.34
0.0,0.83,0.17,1.8,1.2,1,1.74,FTO,SnO2,PCBM,52.0,spiro,104.0,Ag,one-step,spin,unknown,DMF,185.0,90.0,19.4,1.2,0.751,17.1
0.0,0.0,1.0,3.0,0.0,0,1.58,FTO,PCBM,BCP,40.6,ployTPD:F4-TCNQ,74.0,Ag,three-step,CAGQ,unknown,DMF/DMSO,100.0,60.0,0.81,13.5,0.6,6.6
0.05,0.79,0.15,2.45,0.55,1,1.6,ITO,SnO2,unknown,20.0,spiro,200.0,Au,unknown,unknown,unknown,unknown,102.0,52.0,22.297,1.0755,0.7475,17.92
0.0,0.3,0.7,0.0,3.0,0,1.57,ITO,C60,PCBM,24.2,NiOx,65.2,Ag,two-step,spin,toluene,DMF/DMSO,100.0,10.0,21.47,1.02,0.75,16.42
0.15,0.8,0.05,3.0,0.0,1,1.60582,ITO,ZnO2,unknown,26.0,spiro,120.0,Ag,two-step,spin,CB,DMSO,110.0,5.0,22.72,1.12,0.7204,18.33
0.05,0.95,0.0,3.05,0.0,1,1.478,FTO,TiO2,unknown,72.6,spiro,150.428,Au,two-step,spin,CB,DMF/DMSO,100.0,60.0,25.45,1.09,0.727,20.1
0.07,0.9,0.03,2.76,0.24,1,1.69576,FTO,c-TiO2,mp-TiO2,28.0,spiro,172.0,Au,two-step,spin,CB,DMF/DMSO,150.0,30.0,24.5,1.08,0.76,20.52
0.0,0.5,0.5,2.0,1.0,1,1.75,FTO,c-TiO2,mp-TiO2,22.2,spiro,94.0034,Au,two-step,spin,CB,DMF/DMSO,100.0,30.0,20.0,1.1,0.69,15.3
0.0,0.4,0.6,3.0,0.0,0,1.53,ITO,PCBM,unknown,30.6,PEDOT:PSS,150.22,Ca/Ag,two-step,spin,toluene,DMF,100.0,120.0,18.95,0.943,0.731,13
0.05,0.76,0.19,2.43,0.57,1,1.69576,FTO,c-TiO2,mp-TiO2,46.2,TPB,91.0,Au,two-step,spin,CB,DMF/DMSO,102.0,38.6,18.5,0.991,0.7,12.59
0.05,0.7885,0.1615,2.49,0.51,1,1.52658,FTO,4%Nb–PlanarTiO2,unknown,34.6,unknown,160.22,Au,one-step,spin,CB,DMF/DMSO,100.0,60.0,16.84,0.79,0.51,6.78
0.0,0.17,0.83,0.5,2.5,1,2.15,FTO,c-TiO2,mp-TiO2,21.2,spiro,133.0034,Au,two-step,spin,CB,DMF/DMSO,100.0,30.0,2.8,0.95,0.86,2.3
0.0,0.67,0.33,2.0,1.0,1,1.68,FTO,c-TiO2,mp-TiO2,23.2,spiro,55.2034,Au,two-step,spin,CB,DMF/DMSO,100.0,30.0,21.4,1.15,0.75,18.5
0.05,0.7885,0.1615,2.49,0.51,1,1.60329,FTO,TiO2,unknown,60.0,spiro,80.0,Au,two-step,spin,CB,DMF/DMSO,110.0,60.0,16.94,1.06,0.5784,10.42
0.0,1.0,0.0,0.5,2.5,1,2.1,FTO,c-TiO2,mp-TiO2,21.2,spiro,94.0034,Au,two-step,spin,CB,DMF/DMSO,100.0,30.0,9.7,1.06,0.49,5
0.0,0.0,1.0,2.4,0.6,1,1.72,ITO,C60,unknown,46.4,TaTm,74.0,Au,Vacuum Deposited,unknown,unknown,unknown,100.0,34.0,17.3,1.104,0.819,15.6
0.0,0.5,0.5,1.5,1.5,1,1.84,ITO,TiO2,unknown,22.2,spiro,139.2,Au,one-step,spin,CB,DMF/DMSO,100.0,10.0,16.19,1.11,0.59,11.1
[...]
0.0,1.0,0.0,0.0,3.0,1,2.27,FTO,c-TiO2,mp-TiO2,21.2,spiro,94.0034,Au,two-step,spin,CB,DMF/DMSO,100.0,30.0,7.5,1.14,0.58,5
0.05,0.8075,0.1425,2.572,0.4275,1,1.65,unknown,unknown,unknown,46.4,unknown,108.0,unknown,unknown,unknown,unknown,unknown,102.0,32.0,1.21,1.59,22.59,0.81
0.4,0.498,0.102,2.49,0.51,1,1.69576,FTO,c-TiO2,mp-TiO2,34.6,spiro,150.22,Au,two-step,spin,CB,DMF/DMSO,100.0,60.0,18.3,1.01,0.71,13.1
0.0,0.83,0.17,1.5,1.5,1,1.87,FTO,c-TiO2,mp-TiO2,21.2,spiro,94.0034,Au,two-step,spin,CB,DMF/DMSO,100.0,30.0,15.6,1.15,0.63,11.4
0.15,0.85,0.0,2.85,0.15,1,1.59,FTO,SnO2,C,28.0,spiro,172.0,Ag,three-step,spin,unknown,DMF/DMSO,150.0,30.0,0.98,21.5,0.7,14.7
0.05,0.7885,0.1615,2.49,0.51,1,1.69576,FTO,1%Nb–mpTiO2,unknown,34.6,unknown,160.22,Au,one-step,spin,CB,DMF/DMSO,100.0,60.0,14.52,0.84,0.41,5
0.2,0.8,0.0,1.95,1.05,1,1.76,FTO,SnO2,C,28.0,spiro,172.0,Ag,three-step,spin,unknown,DMF/DMSO,150.0,30.0,1.08,16.9,0.7,12.5
0.0,0.0,1.0,3.0,0.0,1,1.6,unknown,unknown,unknown,32.6,unknown,98.2034,unknown,unknown,unknown,unknown,unknown,106.0,44.0,20.7,1.26,0.8,20.7
0.08,0.8004,0.1196,2.641,0.3588,1,1.60329,FTO,c-TiO2,mp-TiO2,72.6,spiro,200.614,Cu,two-step,spin,CB,DMF/DMSO,100.0,60.0,24.13,1.1,0.676,17.82
0.4,0.0,0.6,3.0,0.0,0,1.62,ITO,PCBM,unknown,24.0,PEDOT:PSS,198.0,Al,one-step,spin,toluene,GBL/DMF,110.0,10.0,4.26,1.03,0.57,2.5
0.0,0.65,0.35,1.95,1.05,1,1.73,ITO,TiO2,unknown,22.2,spiro,139.2,Au,one-step,spin,CB,DMF/DMSO,100.0,10.0,18.5,1.09,0.68,13.95
0.15,0.85,0.0,2.55,0.45,1,1.76235,ITO,SnO2,unknown,21.2,spiro,94.0034,Au,two-step,R2R,CB,DMSO/2BE,100.0,30.0,15.2,1.029,0.715,15.2
0.05,0.7885,0.1615,2.49,0.51,1,1.52914,FTO,TiO2,unknown,52.0,spiro:tBP : LiTFSI,104.0,Ag,one-step,spin,CB,DMF/DMSO,110.0,60.0,21.9,1.09,0.681,16.5
0.0,0.0,1.0,3.0,0.0,1,1.53408,ITO,SnO2,unknown,20.0,spiro,220.0,Ag,two-step,R2R,CB,DMF/DMSO,100.0,10.0,15.5,0.83,0.607,7.8
0.05,0.88,0.07,3.0,0.0,0,1.84453,FTO,PCBM,BCP,24.2,MeO-4PACz,64.0,Ag,one-step,spin,isopropanol ,DMF/DMSO,100.0,15.0,25.08,1.167,0.8401,24.29
0.05,0.7885,0.1615,2.515,0.4845,0,1.68568,ITO,C,unknown,34.008,0.1PTAA,190.22,Cu,one-step,spin,diethyl ether,DMF/DMSO,100.0,60.0,22.2,1.03,0.808,18.4
0.05,0.7885,0.1615,2.49,0.51,1,1.69576,FTO,Li-TiO2,unknown,72.6,spiro,150.428,Au,one-step,coat,BBr,DMF/DMSO,100.0,60.0,24.8,1.1,0.696,18.3
0.07,0.9,0.03,2.76,0.24,1,1.69576,FTO,c-TiO2,mp-TiO2,28.0,spiro/Gual,172.0,Au,two-step,spin,CB,DMF/DMSO/EAI/IAI,150.0,30.0,21.97,1.14,0.71,18.1
0.25,0.5625,0.1875,2.28,0.72,0,1.72,ITO,C,BCP,21.2,PTAA,94.0034,Cu,two-step,spin,unknown,DMF/NMP,100.0,30.0,17.9,1.12,0.764,15.3
0.0,0.33,0.67,1.0,2.0,1,1.97,FTO,c-TiO2,mp-TiO2,21.2,spiro,94.0034,Au,two-step,spin,CB,DMF/DMSO,100.0,30.0,9.0,1.08,0.64,6.2
0.05,0.875,0.075,2.835,0.225,1,1.68575,FTO,c-TiO2,mp-TiO2,52.0,TBTA[6]H/TBPHTFSI,104.0,Au,two-step,spin,CB,DMF/DMSO/MF,120.0,60.0,24.57,1.13,0.8,22.2
0.1,0.747,0.153,2.49,0.51,1,1.69005,FTO,c-TiO2,unknown,34.6,spiro,150.22,Cu,two-step,spin,CB,DMF/DMSO,100.0,60.0,18.0,1.09,0.72,14.1
0.7,0.3,0.0,3.0,0.0,1,1.675392,FTO,c-TiO2,unknown,28.0,spiro,172.0,Ag,three-step,spin,toluene,DMF/DMSO,170.0,10.0,18.08,1.0,0.56,10.2
0.2,0.664,0.136,2.49,0.51,1,1.60329,FTO,TiO2,unknown,60.0,spiro,80.0,Au,two-step,spin,CB,DMF/DMSO,110.0,60.0,17.11,0.95,0.5499,8.92
0.175,0.75,0.075,2.64,0.36,0,1.52576,ITO,PCBM,ZnO,24.2,NiOx,65.2,Ag,two-step,spin,unknown,DMF/DMSO,100.0,10.0,21.3,1.06,0.7695,17.42
0.05,0.86,0.09,2.91,0.09,1,1.56,FTO,SnO2,unknown,72.6,spiro,200.62,Ag,two-step,spin,CB,DMF/DMSO/MACl,100.0,60.0,23.5,1.08,0.776,19.7
0.05,0.7885,0.1615,2.49,0.51,1,1.52658,FTO,5%Nb–PlanarTiO2,unknown,34.6,unknown,150.22,Au,one-step,spin,CB,DMF/DMSO,100.0,60.0,16.98,0.78,0.54,7.15

File: tem.csv
Cs,FA,MA,Pb,I,Br,structure,bandgap,substrate,ETL,ETL-2,ETLthickness,HTL,HTLthickness,electrode,depositionProcedure,depositionMethod,Anti-solvent,PrecursorSolvent,AnnealingTemperature,AnnealingTime,Jsc,Voc,FF,PCE
0.06,0.45,0.49,1.0,1.86,0.96,1,1.8,FTO,SnO2,,,spiro,,C,one-step,spin,,DMF/DMSO,100.0,30.0,12.1,1.05,0.49,7.2
0.05,0.8,0.15,1.0,1.8,1.2,1,1.768,ITO,TiO2,,,CuSCN,,Cu,,,,,,,14.899,1.32,0.651,12.803
0.25,0.5625,0.1875,1.0,2.1,0.9,0,1.76,ITO,C,BCP,,PTAA,,Cu,two-step,spin,,DMF/NMP,100.0,30.0,16.7,1.17,0.696,13.6
0.17,0.83,0.0,1.0,1.8,1.2,1,1.75,,,,,,,,,,,,,,19.8,1.2,0.751,17.1
0.15,0.6375,0.2125,1.0,2.1,0.9,0,1.74,ITO,C,BCP,,PTAA,,Cu,two-step,spin,,DMF/NMP,100.0,30.0,18.0,1.11,0.719,14.4
0.05,0.7125,0.2375,1.0,2.1,0.9,0,1.73,ITO,C,BCP,,PTAA,,Cu,two-step,spin,,DMF/NMP,100.0,30.0,15.0,1.13,0.66,11.2
0.1,0.75,0.15,1.0,2.01,0.99,1,1.73,,,,,,,,,,,,,,,1.13,,17.3
0.25,0.5625,0.1875,1.0,2.28,0.72,0,1.72,ITO,C,BCP,,PTAA,,Cu,two-step,spin,,DMF/NMP,100.0,30.0,17.9,1.12,0.764,15.3
0.15,0.6375,0.2125,1.0,2.28,0.72,0,1.71,ITO,C,BCP,,PTAA,,Cu,two-step,spin,,DMF/NMP,100.0,30.0,18.7,1.09,0.724,14.9
0.25,0.5625,0.1875,1.0,2.4,0.6,0,1.7,ITO,C,BCP,,PTAA,,Cu,two-step,spin,,DMF/NMP,100.0,30.0,17.8,1.12,0.705,14.1
0.15,0.7055,0.1445,1.0,2.1,0.9,1,1.7,,,,,,,,,,,,,,18.7,1.19,0.802,18.6
0.3,0.6,0.1,1.0,2.4,0.6,1,1.7,,,,,,,,,,,,,,19.6,1.2,0.82,19.2
0.05,0.7125,0.2375,1.0,2.28,0.72,0,1.68,ITO,C,BCP,,PTAA,,Cu,two-step,spin,,DMF/NMP,100.0,30.0,17.5,1.11,0.733,14.3
0.15,0.6375,0.2125,1.0,2.4,0.6,0,1.68,ITO,C,BCP,,PTAA,,Cu,two-step,spin,,DMF/NMP,100.0,30.0,19.9,1.1,0.737,16.1
0.25,0.5625,0.1875,1.0,2.49,0.51,0,1.68,ITO,C,BCP,,PTAA,,Cu,two-step,spin,,DMF/NMP,100.0,30.0,18.1,1.13,0.674,13.8
0.15,0.65,0.2,1.0,2.4,0.6,1,1.68,,,,,,,,,,,,,,21.2,1.17,0.798,19.8
0.05,0.7125,0.2375,1.0,2.4,0.6,0,1.67,ITO,C,BCP,,PTAA,,Cu,two-step,spin,,DMF/NMP,100.0,30.0,18.8,1.11,0.714,14.9
0.2134,0.7566,0.03,1.0,2.473,0.4365,1,1.67,,,,,,,,,,,,,,20.2,1.22,0.832,20.4
0.05,0.8,0.15,1.0,2.4,0.6,1,1.654,ITO,TiO2,,,CuSCN,,Cu,,,,,,,16.927,1.14,0.727,14.024
0.2,0.32,0.48,1.0,2.8,0.2,1,1.65,FTO,TiO2,Al2O3,,NiO,,C,two-step,spin,,DMF/DMSO,100.0,30.0,12.61,0.889,0.6807,7.64
0.05,0.7125,0.2375,1.0,2.49,0.51,0,1.65,ITO,C,BCP,,PTAA,,Cu,two-step,spin,,DMF/NMP,100.0,30.0,19.5,1.07,0.704,14.6
0.15,0.6375,0.2125,1.0,2.49,0.51,0,1.65,ITO,C,BCP,,PTAA,,Cu,two-step,spin,,DMF/NMP,100.0,30.0,20.3,1.09,0.757,16.8
0.05,0.8,0.15,1.0,2.25,0.75,1,1.65,,,,,,,,,,,,,,21.2,1.22,0.76,20.8
0.05,0.8075,0.1425,1.0,2.572,0.4275,1,1.65,,,,,,,,,,,,,,,1.59,0.81,22.59
0.1,0.36,0.54,1.0,2.8,0.2,1,1.647,FTO,TiO2,Al2O3,,NiO,,C,two-step,spin,,DMF/DMSO,100.0,30.0,17.63,0.903,0.6637,10.57
0.25,0.5625,0.1875,1.0,2.7,0.3,0,1.64,ITO,C,BCP,,PTAA,,Cu,two-step,spin,,DMF/NMP,100.0,30.0,19.9,1.07,0.805,17.1
0.05,0.8,0.15,1.0,2.52,0.48,1,,ITO,TiO2,,,CuSCN,,Cu,,,,,,,18.503,1.1,0.739,15.054
0.05,0.38,0.57,1.0,2.8,0.2,1,1.63,FTO,TiO2,Al2O3,,NiO,,C,two-step,spin,,DMF/DMSO,100.0,30.0,23.4,1.008,0.7214,17.02
0.15,0.6375,0.2125,1.0,2.7,0.3,0,1.63,ITO,C,BCP,,PTAA,,Cu,two-step,spin,,DMF/NMP,100.0,30.0,21.2,1.06,0.722,16.2
0.05,0.7885,0.1615,1.0,2.46,0.54,1,1.63,,,,,,,,,,,,,,21.6,1.1,0.779,18.4
0.05,0.8,0.15,1.0,2.55,0.45,1,1.63,,,,,,,,,,,,,,22.8,1.24,0.78,22.1
0.13,0.77,0.0,1.0,2.46,0.54,1,1.62,,,,,,,,,,,,,,22.3,1.25,0.8,22.3
0.0,0.4,0.6,1.0,2.8,0.2,1,1.617,FTO,TiO2,Al2O3,,NiO,,C,two-step,spin,,DMF/DMSO,100.0,30.0,22.31,0.953,0.7,14.88
0.05,0.85,0.15,1.0,2.55,0.45,1,1.61,,,,,,,,,,,,,,,,,
0.05,0.79,0.15,1.0,2.45,0.55,1,1.6,ITO,SnO2,,20.0,spiro,200.0,Au,,,,,,,22.297,1.0755,0.7475,17.92
0.05,0.7125,0.2375,1.0,2.7,0.3,0,1.6,ITO,C,BCP,,PTAA,,Cu,two-step,spin,,DMF/NMP,100.0,30.0,20.8,1.08,0.767,17.3
0.0,0.0,1.0,1.0,3.0,0.0,1,1.6,,,,,,,,,,,,,,20.7,1.26,0.8,20.7
0.05,0.76,0.19,1.0,2.45,0.6,1,1.572,FTO,TiO2,,,spiro,,Au,two-step,spin,CB,DMF/DMSO,100.0,60.0,23.29,1.156,0.765,20.6
0.175,0.75,0.075,1.0,2.64,0.36,1,1.57,FTO,c-TiO2,mp-TiO2,,spiro,,Au,two-step,spin,CB,DMF/DMSO,100.0,20.0,21.88,1.124,0.75,18.45
0.05,0.81,0.14,1.0,2.55,0.45,1,1.57,,,,,,,,,,,,,,22.16,1.23,0.78,21.1
0.05,0.8,0.15,1.0,2.85,0.15,1,1.5685,ITO,TiO2,,,CuSCN,,Cu,,,,,,,18.875,1.02,0.769,14.812
0.05,0.86,0.09,1.0,2.91,0.09,1,1.56,FTO,SnO2,,,spiro,,Ag,two-step,spin,CB,DMF,100.0,60.0,21.0,0.987,0.453,9.4
0.05,0.86,0.09,1.0,2.91,0.09,1,1.56,FTO,SnO2,,,spiro,,Ag,two-step,spin,CB,DMF/DMSO,100.0,60.0,23.49,1.041,0.748,18.3
0.05,0.8,0.15,1.0,2.85,0.15,1,1.55,,,,,,,,,,,,,,24.1,1.18,0.83,23.7
0.05,0.8075,0.1425,1.0,2.6,0.45,1,1.546,FTO,TiO2,,,spiro,,Au,two-step,spin,CB,DMF/DMSO,100.0,60.0,23.61,1.135,0.777,20.7
0.05,0.855,0.095,1.0,2.75,0.3,1,1.537,FTO,TiO2,,,spiro,,Au,two-step,spin,CB,DMF/DMSO,100.0,60.0,24.13,1.131,0.768,21.0
0.03,0.9409,0.0291,1.0,2.91,0.09,1,1.53,,,,,,,,,,,,,,24.6,1.21,0.8,23.8
0.05,0.9025,0.0475,1.0,2.9,0.15,1,,FTO,TiO2,,,spiro,,Au,two-step,spin,CB,DMF/DMSO,100.0,60.0,24.69,1.126,0.768,21.4
0.05,0.95,0.0,1.0,3.05,0.0,1,,FTO,TiO2,,,spiro,,Au,two-step,spin,CB,DMF/DMSO,100.0,60.0,25.45,1.09,0.727,20.1
0.05,0.9,0.05,1.0,3.0,0.0,1,,FTO,c-TiO2,mp-TiO2,,spiro,0.07,Au,two-step,spin,CB,DMF/DMSO,100.0,60.0,25.32,1.12,0.837,23.76
0.05,0.9,0.05,1.0,3.0,0.0,1,,FTO,c-TiO2,mp-TiO2,,spiro,0.07,Au,two-step,spin,CB,DMF/DMSO/DmmimCl,100.0,60.0,25.26,1.15,0.84,24.46
0.05,0.85,0.1,1.0,2.55,0.45,1,,FTO,SnO2,,0.04,spiro,,Cu,one-step,spin,CB,DMF/DMSO,100.0,60.0,22.01,1.045,0.743,17.1
0.05,0.7885,0.1615,1.0,2.49,0.51,1,,ITO,SnO2,,30.0,spiro,165.0,Ag,one-step,spin,CB,DMF/DMSO,120.0,0.0,20.17,1.12,0.6634,15.03
0.05,0.7885,0.1615,1.0,2.49,0.51,1,,ITO,SnO2,,30.0,spiro,165.0,Ag,one-step,spin,CB,DMF/DMSO,120.0,2.0,21.2,1.12,0.6478,15.37
0.05,0.7885,0.1615,1.0,2.49,0.51,1,,ITO,SnO2,,30.0,spiro,165.0,Ag,one-step,spin,CB,DMF/DMSO,120.0,5.0,20.01,1.14,0.7694,17.48
0.05,0.7885,0.1615,1.0,2.49,0.51,1,,ITO,SnO2,,30.0,spiro,165.0,Ag,one-step,spin,CB,DMF/DMSO,120.0,10.0,21.32,1.14,0.7622,18.57
0.05,0.7885,0.1615,1.0,2.49,0.51,1,,ITO,SnO2,,30.0,spiro,165.0,Ag,one-step,spin,CB,DMF/DMSO,120.0,15.0,20.91,1.14,0.7513,17.97
0.05,0.7885,0.1615,1.0,2.49,0.51,1,,ITO,SnO2,,30.0,spiro,165.0,Ag,one-step,spin,CB,DMF/DMSO,120.0,20.0,19.78,1.14,0.7534,17.04
0.05,0.7885,0.1615,1.0,2.49,0.51,1,,ITO,SnO2,,30.0,spiro,165.0,Ag,one-step,spin,CB,DMF/DMSO,120.0,10.0,19.96,1.13,0.6966,15.73
0.05,0.81,0.14,1.0,2.86,0.14,0,,FTO,C,BCP,,NiOx,,Ag,two-step,spin,toluene,DMF/DMSO,120.0,10.0,23.1,0.93,0.769,16.2
0.16,0.8,0.04,1.0,1.5,1.5,0,,FTO,PCBM,BCP,,PTAA,,Ag,one-step,spin,CB,DMF/DMSO,100.0,15.0,17.64,1.22,0.73,15.7
0.05,0.7885,0.1615,1.0,2.49,0.51,1,,FTO,TiO2,,,spiro,,Ag,two-step,spin,CB,DMF/DMSO,100.0,5.0,23.78,1.145,0.7789,21.15
0.05,0.7885,0.1615,1.0,2.49,0.51,1,,FTO,TiO2,,,spiro,,Ag,one-step,spin,CB,DMF/DMSO,110.0,60.0,22.3,1.14,0.705,18.3
0.05,0.81,0.14,1.0,2.55,0.45,1,,ITO,SnO2,,,spiro,,,,,,DMF/DMSO,,,22.5,1.11,0.78,19.4
0.06,0.79,0.15,1.0,2.55,0.45,1,,FTO,c-TiO2,mp-TiO2,,spiro,,Au,two-step,spin,CB,DMF/DMSO,100.0,60.0,22.95,1.121,0.78,20.0
0.05,0.7885,0.1615,1.0,3.0,0.0,1,,ITO,SnO2,,,spiro,,Au,two-step,R2R,CB,DMF/DMSO,100.0,10.0,21.67,0.82,0.6826,12.08
0.05,0.7885,0.1615,1.0,2.49,0.51,1,,ITO,SnO2,,,spiro,,Au,two-step,R2R,CB,DMF/DMSO,100.0,10.0,20.62,1.05,0.7605,16.51
0.05,0.7885,0.1615,1.0,1.95,1.05,1,,ITO,SnO2,,,spiro,,Au,two-step,R2R,CB,DMF/DMSO,100.0,10.0,17.17,1.09,0.7583,14.24
0.05,0.7885,0.1615,1.0,1.5,1.5,1,,ITO,SnO2,,,spiro,,Au,two-step,R2R,CB,DMF/DMSO,100.0,10.0,15.05,1.12,0.6427,10.81
[...]
0.0,0.3,0.7,1.0,0.6,2.4,0,1.69,ITO,C,PCBM,,NiOx,,Ag,two-step,spin,toluene,DMF/DMSO,100.0,10.0,17.34,1.11,0.78,15.01
0.17,0.83,0.0,1.0,2.4,0.8,1,1.72,FTO,SnO2,,,spiro,,Au,two-step,spin,CB,DMF/DMSO,100.0,60.0,18.3,1.244,0.77,18.6
0.17,0.83,0.0,1.0,1.8,1.2,1,1.79,FTO,SnO2,,,spiro,,Au,two-step,spin,CB,DMF/DMSO,100.0,60.0,16.4,1.284,0.687,16.51
0.17,0.83,0.0,1.0,1.5,1.5,1,1.86,FTO,SnO2,,,spiro,,Au,two-step,spin,CB,DMF/DMSO,100.0,60.0,15.1,1.296,0.674,15.01
0.17,0.83,0.0,1.0,1.2,1.8,1,1.93,FTO,SnO2,,,spiro,,Au,two-step,spin,CB,DMF/DMSO,100.0,60.0,13.6,1.312,0.652,14.35
0.17,0.83,0.0,1.0,2.25,0.75,0,1.68,ITO,C,BCP,,PTAA,,Ag,three-step,spin,,DMF/DMSO,100.0,30.0,19.0,1.1,0.74,15.4
0.25,0.75,0.0,1.0,2.4,0.6,0,1.68,ITO,C,BCP,,PTAA,,Ag,three-step,spin,,DMF/DMSO,100.0,30.0,19.4,1.1,0.81,17.4
0.17,0.83,0.0,1.0,1.8,1.2,0,1.75,ITO,C,BCP,,PTAA,,Ag,three-step,spin,,DMF/DMSO,100.0,30.0,17.4,1.13,0.74,14.6
0.4,0.6,0.0,1.0,2.1,0.9,0,1.75,ITO,C,BCP,,PTAA,,Ag,three-step,spin,,DMF/DMSO,100.0,30.0,17.5,1.17,0.8,16.3
0.0,0.0,1.0,1.0,3.0,0.0,1,1.58,FTO,SnO2,C,,spiro,,Ag,three-step,CAGQ,,DMF/DMSO,100.0,60.0,16.3,0.81,0.53,7.5
0.0,0.85,0.15,1.0,2.7,0.3,1,1.55,FTO,SnO2,C,,spiro,,Ag,three-step,CAGQ,,DMF/DMSO,100.0,60.0,17.0,0.81,0.5,6.3
0.0,0.85,0.15,1.0,2.85,0.15,1,1.55,FTO,SnO2,C,,spiro,,Ag,three-step,CAGQ,,DMF/DMSO,150.0,30.0,18.4,0.9,0.46,7.7
0.05,0.7885,0.1615,1.0,2.7,0.3,1,1.55,FTO,SnO2,C,,spiro,,Ag,three-step,CAGQ,,DMF/DMSO,100.0,60.0,18.3,0.9,0.58,8.9
0.0,0.0,1.0,1.0,3.0,0.0,1,1.61,FTO,SnO2,C,,spiro,,Ag,three-step,spin,,DMF/DMSO,100.0,60.0,21.2,1.05,0.74,16.5
0.0,0.0,1.0,1.0,3.0,0.0,1,1.59,FTO,SnO2,C,,spiro,,Ag,three-step,spin,,DMF,100.0,60.0,21.4,1.01,0.66,14.6
0.0,1.0,0.0,1.0,3.0,0.0,1,1.52,FTO,SnO2,C,,spiro,,Ag,three-step,spin,,DMF/DMSO,150.0,30.0,22.3,0.95,0.75,16.1
0.0,0.85,0.15,1.0,2.7,0.3,1,1.57,FTO,SnO2,C,,spiro,,Ag,three-step,spin,,DMF/DMSO,100.0,60.0,21.9,1.06,0.72,16.6
0.15,0.85,0.0,1.0,2.85,0.15,1,1.59,FTO,SnO2,C,,spiro,,Ag,three-step,spin,,DMF/DMSO,150.0,30.0,21.5,0.98,0.7,14.7
0.05,0.7885,0.1615,1.0,2.7,0.3,1,1.58,FTO,SnO2,C,,spiro,,Ag,three-step,spin,,DMF/DMSO,100.0,60.0,22.6,1.08,0.74,18.0
0.2,0.8,0.0,1.0,1.95,1.05,1,1.76,FTO,SnO2,C,,spiro,,Ag,three-step,spin,,DMF/DMSO,150.0,30.0,16.9,1.08,0.7,12.5
0.25,0.75,0.0,1.0,2.1,0.9,1,1.73,FTO,SnO2,C,,spiro,,Ag,three-step,spin,,DMF/DMSO,150.0,30.0,17.1,1.06,0.67,12.2
0.2,0.664,0.136,1.0,1.95,1.05,1,1.77,FTO,SnO2,C,,spiro,,Ag,three-step,spin,,DMF/DMSO,100.0,60.0,16.5,1.07,0.69,12.0
0.0,0.0,1.0,1.0,3.0,0.0,0,1.58,FTO,PCBM,BCP,,ployTPD:F4-TCNQ,,Ag,three-step,CAGQ,,DMF/DMSO,100.0,60.0,13.5,0.81,0.6,6.6
0.05,0.7885,0.1615,1.0,2.7,0.3,0,1.55,FTO,PCBM,BCP,,ployTPD:F4-TCNQ,,Ag,three-step,CAGQ,,DMF/DMSO,100.0,60.0,11.2,0.1,0.19,0.3
0.2,0.8,0.0,1.0,1.95,1.05,0,1.76,FTO,PCBM,BCP,,ployTPD:F4-TCNQ,,Ag,three-step,CAGQ,,DMF/DMSO,150.0,30.0,14.1,0.91,0.49,6.3
0.0,0.0,1.0,1.0,3.0,0.0,0,1.61,FTO,PCBM,BCP,,ployTPD:F4-TCNQ,,Ag,three-step,spin,,DMF/DMSO,100.0,60.0,18.9,1.04,0.79,15.6
0.05,0.7885,0.1615,1.0,2.7,0.3,0,1.58,FTO,PCBM,BCP,,ployTPD:F4-TCNQ,,Ag,three-step,spin,,DMF/DMSO,100.0,60.0,20.0,0.95,0.78,15.4
0.2,0.8,0.0,1.0,1.95,1.05,0,1.76,FTO,PCBM,BCP,,ployTPD:F4-TCNQ,,Ag,three-step,spin,,DMF/DMSO,150.0,30.0,14.3,1.07,0.76,11.6
0.6,0.0,0.4,1.0,1.8,1.2,0,1.81,ITO,PCBM,BCP,,PTAA,,Ag,one-step,spin,CB,DMF/DMSO,130.0,10.0,13.9,1.17,0.683,11.1
0.6,0.4,0.0,1.0,1.8,1.2,0,1.78,ITO,PCBM,BCP,,PTAA,,Ag,one-step,spin,CB,DMF/DMSO,130.0,10.0,14.0,1.12,0.774,12.1
0.0,0.4,0.6,1.0,1.8,1.2,0,1.76,ITO,PCBM,BCP,,PTAA,,Ag,one-step,spin,CB,DMF/DMSO,130.0,10.0,16.0,1.17,0.786,14.7
0.15,0.85,0.0,1.0,0.9,2.1,1,2.0,ITO,TiO2,,,TaTm,,Au,one-step,spin,toluene,DMSO,100.0,30.0,11.36,1.183,0.774,10.4