Folder: PSCmachine_learning/TCP_ML/Target_Encoding

Note: README.md
# PSCmachine_learning
perovskite solar cells and machine learning

File: df_encoded_PCE.csv
Cs,FA,MA,I,Br,structure,bandgap,glass,ETL,ETL-2,Ethickness,HTL,Hthickness,meta,depositionProcedure,depositionMethod,Anti-solvent,PrecursorSolution,AnnealingTemperature,AnnealingTime,Jsc,Voc,FF,PCE
0.2,0.664,0.136,2.49,0.51,1,1.67593,13.7486,13.4883,13.3833,32.8,14.5098,150.22,14.1278,15.0432,14.5407,14.2343,14.001,100.0,60.0,20.8,1.09,0.74,16.8
0.15,0.7055,0.1445,2.1,0.9,1,1.7,16.2199,16.2199,14.7209,46.2,13.615,108.0,16.3371,16.5949,16.3531,14.994,16.0674,110.0,27.0,18.7,1.19,0.802,18.6
0.0,0.85,0.15,2.55,0.45,1,1.6,15.1313,15.159,14.7209,23.2,14.5098,104.2,14.1278,13.3874,14.5407,14.2343,14.001,100.0,10.0,20.77,1.04,0.68,14.08
0.15,0.6375,0.2125,2.28,0.72,0,1.71,15.1313,15.4052,14.6411,22.2,15.7676,94.0034,15.4224,15.0432,14.5407,14.994,14.6717,100.0,30.0,18.7,1.09,0.724,14.9
0.05,0.7885,0.1615,1.5,1.5,1,1.69117,15.1313,15.5699,14.7209,22.2,14.5098,139.2,14.1278,15.0432,13.6124,14.2343,14.001,100.0,10.0,15.05,1.12,0.6427,10.81
0.0,0.85,0.15,2.7,0.3,1,1.57,13.7486,15.5699,13.9051,40.6,14.5098,74.0,15.2714,12.719,14.5407,14.994,14.001,100.0,60.0,1.06,21.9,0.72,16.6
0.05,0.95,0.0,3.05,0.0,1,1.478,13.7486,15.159,14.7209,72.6,14.5098,150.428,14.1278,15.0432,14.5407,14.2343,14.001,100.0,60.0,25.45,1.09,0.727,20.1
0.0,0.67,0.33,2.0,1.0,1,1.68,13.7486,13.4883,13.3833,23.2,14.5098,55.2034,14.1278,15.0432,14.5407,14.2343,14.001,100.0,30.0,21.4,1.15,0.75,18.5
0.1,0.765,0.135,2.55,0.45,0,1.67593,15.1313,15.5699,14.7209,30.0,14.5098,176.0,15.2714,14.101,16.3531,14.2343,14.001,100.0,54.0,19.81,0.95,0.7,13.41
0.05,0.9,0.05,3.0,0.0,1,1.68344,13.7486,13.4883,15.8536,20.016,14.5098,0.07,14.1278,15.0432,14.5407,15.8536,15.9032,100.0,60.0,25.26,1.15,0.84,24.46
0.05,0.7885,0.1615,2.7,0.3,0,1.69576,15.1313,11.7704,14.9335,25.0,15.0294,10.0,12.109,15.0432,14.5407,14.2343,14.001,100.0,10.0,21.9,0.878,0.68,13.0
0.05,0.7885,0.1615,2.49,0.51,1,1.84427,15.1313,15.5699,14.7209,30.0,14.5098,165.0,15.2714,13.3874,14.5407,14.2343,14.001,120.0,2.0,21.2,1.12,0.6478,15.37
0.05,0.9,0.05,3.0,0.0,1,1.52658,13.7486,13.4883,15.8536,20.016,14.5098,0.07,14.1278,15.0432,14.5407,15.8536,14.001,100.0,60.0,25.32,1.12,0.837,23.76
0.05,0.81,0.14,2.55,0.45,1,1.53408,13.7486,15.159,14.7209,72.6,14.5098,60.028,14.1278,15.0432,14.5407,14.2343,14.001,100.0,60.0,28.48,1.02,0.5505,15.99
0.05,0.86,0.09,2.91,0.09,1,1.56,13.7486,15.5699,14.7209,32.8,14.5098,190.22,15.2714,15.0432,14.5407,14.2343,14.1985,100.0,60.0,21.0,0.987,0.453,9.4
0.05,0.7885,0.1615,2.49,0.51,1,1.69576,13.7486,14.8921,14.7209,46.208,14.5098,200.62,14.1278,13.3874,14.909,14.6464,14.001,100.0,60.0,23.1,1.09,0.627,15.7
0.05,0.7125,0.2375,2.1,0.9,0,1.73,15.1313,15.4052,14.6411,21.2,15.7676,94.0034,15.4224,15.0432,14.5407,14.994,14.6717,100.0,30.0,15.0,1.13,0.66,11.2
0.05,0.7885,0.1615,2.49,0.51,1,1.63352,15.1313,15.5699,14.7209,52.0,15.2111,104.0,14.1278,15.0432,14.5407,14.2343,14.001,110.0,50.0,23.09,1.137,0.763,20.04
0.0,0.85,0.15,2.55,0.45,1,1.68654,15.1313,15.5699,14.7209,28.0,14.5098,172.0,14.1278,15.0432,14.5407,14.2343,14.001,130.0,30.0,22.13,1.15,0.7141,18.17
0.0,0.17,0.83,2.0,1.0,1,1.76,13.7486,13.4883,13.3833,21.2,14.5098,94.0034,14.1278,15.0432,14.5407,14.2343,14.001,100.0,30.0,16.7,1.12,0.65,12.2
0.05,0.7885,0.1615,2.7,0.3,0,1.58,13.7486,11.7704,14.6411,40.6,13.4624,74.0,15.2714,12.719,14.5407,14.994,14.001,100.0,60.0,0.95,20.0,0.78,15.4
0.05,0.7885,0.1615,2.49,0.51,1,1.5427,15.1313,15.5699,14.7209,30.0,14.5098,165.0,15.2714,13.3874,14.5407,14.2343,14.001,120.0,20.0,19.78,1.14,0.7534,17.04
0.02,0.38,0.6,2.975,0.025,0,1.73941,15.1313,11.7704,14.7209,24.2,11.6,65.2,14.301,13.3874,14.909,14.994,14.1985,100.0,10.0,21.35,1.0,0.6865,14.66
0.05,0.8,0.15,2.55,0.45,1,1.69576,13.7486,15.159,14.7209,72.6,14.5098,200.62,14.1278,15.0432,14.5407,14.2343,15.2904,100.0,60.0,23.215,1.162,0.765,20.65
0.0,0.65,0.35,3.0,0.0,0,1.52,15.1313,14.5807,14.7346,23.2,15.0294,104.2,15.2714,15.0432,14.5407,11.8135,14.001,100.0,10.0,19.43,0.98,0.58,11.04
0.15,0.65,0.2,2.4,0.6,1,1.68,16.2199,16.2199,14.7209,37.4,13.615,131.2,16.3371,16.5949,16.3531,14.994,16.0674,104.0,38.0,21.2,1.17,0.798,19.8
0.0,0.75,0.25,2.49,0.51,1,1.75839,13.7486,13.4883,13.3833,31.0,14.5098,50.0314,14.1278,15.0432,14.5407,14.2343,14.001,100.0,60.0,18.6,0.906,0.6,10.1
0.25,0.75,0.0,3.0,0.0,1,1.54,13.7486,13.4883,14.7209,28.0,14.5098,172.0,15.2714,13.3874,14.5407,14.994,14.001,185.0,30.0,22.61,0.83,0.51,9.48
0.1,0.747,0.153,2.49,0.51,1,1.60329,13.7486,15.159,14.7209,60.0,14.5098,80.0,14.1278,15.0432,14.5407,14.2343,14.001,110.0,60.0,19.11,1.06,0.6374,12.55
0.0,1.0,0.0,3.0,0.0,1,1.52,13.7486,13.4883,13.3833,28.0,14.5098,172.0,14.1278,15.0432,14.5407,14.2343,14.001,150.0,30.0,13.5,0.99,0.36,4.8
0.1,0.76,0.14,2.58,0.42,1,1.68654,13.7486,15.159,14.7209,62.6,14.5098,200.62,14.1278,15.0432,14.5407,14.2343,14.001,100.0,60.0,23.18,1.07,0.783,19.01
0.0,0.85,0.15,2.55,0.45,1,1.69576,15.1313,15.5699,14.7209,28.0,14.5098,172.0,14.1278,15.0432,14.5407,14.9938,14.001,130.0,30.0,22.56,1.15,0.7263,18.37
0.05,0.86,0.09,2.91,0.09,1,1.56,13.7486,15.5699,14.7209,72.6,14.5098,200.62,15.2714,15.0432,14.5407,14.2343,14.001,100.0,60.0,23.49,1.041,0.748,18.3
0.0,0.4,0.6,2.8,0.2,1,1.617,13.7486,15.159,14.408,24.2,14.1593,59.0034,13.5675,15.0432,14.5407,14.994,14.001,100.0,30.0,22.31,0.953,0.7,14.88
0.15,0.85,0.0,3.0,0.0,1,1.54,13.7486,13.4883,14.7209,28.0,14.5098,172.0,15.2714,13.3874,14.5407,14.994,14.001,185.0,30.0,22.61,0.86,0.64,12.35
0.0,0.5,0.5,3.0,0.0,1,1.69015,13.7486,13.4883,13.3833,52.0,14.5098,104.0,14.1278,13.3874,14.5407,11.8135,14.3622,120.0,60.0,19.92,0.929,0.5499,10.18
0.07,0.9,0.03,2.76,0.24,1,1.68347,13.7486,13.4883,13.3833,28.0,15.247,172.0,14.1278,15.0432,14.5407,14.2343,14.5293,150.0,30.0,22.09,1.11,0.6,14.8
0.08,0.7636,0.1564,2.49,0.51,1,1.60329,13.7486,15.159,14.7209,60.0,14.5098,80.0,14.1278,15.0432,14.5407,14.2343,14.001,110.0,60.0,21.05,1.09,0.6731,15.58
0.05,0.8075,0.1425,2.55,0.45,1,1.69576,13.7486,13.4883,13.3833,34.6,14.1676,150.22,14.1278,12.719,14.5407,14.2343,14.001,100.0,60.0,18.23,1.06,0.62,12.02
0.05,0.8,0.15,2.7,0.3,1,1.59,15.1313,15.2869,14.7209,28.0,15.4778,172.0,15.2714,15.0432,14.5407,14.2343,15.4778,115.0,20.0,23.12,1.16,0.8237,22.09
0.1,0.9,0.0,3.0,0.0,1,1.53,13.7486,13.4883,14.7209,28.0,14.5098,172.0,15.2714,13.3874,14.5407,14.994,14.001,185.0,30.0,22.25,0.69,0.45,6.82
0.04,0.92,0.04,3.0,0.0,0,1.5592,15.1313,15.922,14.7209,26.2,15.7676,25.0,15.2714,15.0432,14.5407,15.3464,14.001,100.0,15.0,24.79,1.05,0.8176,21.08
0.05,0.87,0.08,2.76,0.24,0,1.69576,15.1313,15.922,15.6794,24.2,15.7676,59.0034,15.2714,13.3874,14.5407,14.994,14.7765,100.0,30.0,22.39,1.04,0.718,16.7
0.2134,0.7566,0.03,2.473,0.4365,1,1.67,16.2199,16.2199,14.7209,30.2,13.615,143.0034,16.3371,16.5949,16.3531,14.994,16.0674,100.0,44.0,20.2,1.22,0.832,20.4
0.05,0.9,0.05,3.0,0.0,1,1.5483,13.7486,13.4883,13.3833,72.6,14.5098,150.428,14.1278,13.3874,14.5407,14.2343,15.9032,100.0,60.0,25.26,1.153,0.8398,24.46
0.05,0.7885,0.1615,2.49,0.51,1,1.63352,13.7486,14.8921,14.7209,72.6,14.5098,200.62,14.1278,13.3874,14.909,14.2343,14.001,100.0,60.0,23.3,1.08,0.738,17.3
0.05,0.8,0.15,2.55,0.45,1,1.69477,13.7486,13.4883,14.7209,34.008,14.5098,190.22,14.1278,13.3874,14.5407,14.2343,14.9508,100.0,60.0,22.31,1.085,0.76,18.04
0.05,0.7885,0.1615,2.49,0.51,1,1.56211,15.1313,15.5699,14.7209,30.0,14.5098,165.0,15.2714,13.3874,14.5407,14.2343,14.001,120.0,0.0,20.17,1.12,0.6634,15.03
0.0,0.85,0.15,2.85,0.15,1,1.55,15.1313,15.159,14.7209,23.2,14.5098,104.2,14.1278,13.3874,14.5407,14.2343,14.001,100.0,10.0,20.96,1.01,0.61,14.29
0.15,0.6375,0.2125,2.49,0.51,0,1.65,15.1313,15.4052,14.6411,22.2,15.7676,94.0034,15.4224,15.0432,14.5407,14.994,14.6717,100.0,30.0,20.3,1.09,0.757,16.8
0.0,0.85,0.15,3.0,0.0,1,1.6744,13.7486,13.4883,13.3833,52.0,14.5098,104.0,14.1278,13.3874,14.5407,11.8135,14.3622,150.0,60.0,15.66,0.805,0.598,7.53
0.06,0.79,0.15,1.2,1.8,1,1.83,13.7486,13.4883,13.3833,34.6,14.5098,160.22,14.1278,15.0432,14.5407,14.2343,14.001,100.0,60.0,15.3,1.12,0.72,12.3
0.0,0.85,0.15,2.55,0.45,1,1.69576,15.1313,15.5699,14.7209,28.0,14.5098,172.0,14.1278,15.0432,14.5407,14.7999,14.001,130.0,30.0,21.68,1.14,0.6744,16.88
0.05,0.83,0.17,2.49,0.51,1,1.63352,13.7486,13.4883,13.3833,22.2,14.5098,135.2,14.1278,13.3874,14.5407,14.994,14.001,100.0,3.0,18.9,1.113,0.577,12.1
0.05,0.7885,0.1615,2.49,0.51,1,1.55154,15.1313,15.5699,14.7209,72.6,14.5098,150.428,14.1278,15.0432,14.5407,14.8642,14.001,100.0,60.0,25.54,1.006,0.723,18.58
0.0,0.33,0.67,1.5,1.5,1,1.85,13.7486,13.4883,13.3833,21.2,14.5098,94.0034,14.1278,15.0432,14.5407,14.2343,14.001,100.0,30.0,13.9,1.13,0.68,10.7
0.175,0.75,0.075,2.64,0.36,1,1.57,13.7486,13.4883,13.3833,24.2,14.5098,61.0,14.1278,15.0432,14.5407,14.2343,14.001,100.0,20.0,21.88,1.124,0.75,18.45
0.0,0.85,0.15,1.8,1.2,1,1.76,15.1313,15.159,14.7209,22.2,14.5098,139.2,14.1278,13.3874,14.5407,14.2343,14.001,100.0,10.0,15.8,1.11,0.56,8.32
0.0,0.0,1.0,2.5,0.5,1,1.66,13.7486,13.4883,13.3833,21.2,14.5098,94.0034,14.1278,15.0432,14.5407,14.2343,14.001,100.0,30.0,18.3,1.1,0.66,13.2
0.05,0.85,0.15,2.55,0.45,0,1.52863,15.1313,11.7704,14.6411,72.6,15.7676,200.62,15.2714,13.3874,14.5407,15.0538,14.001,100.0,60.0,23.36,1.04,0.7895,19.18
0.05,0.79,0.16,2.5,0.5,1,1.68654,15.1313,15.159,14.7209,34.4,14.3599,150.22,14.1278,15.0432,14.5407,14.2343,14.476,100.0,60.0,19.4,1.04,0.71,14.39
0.05,0.7885,0.1615,2.515,0.4845,0,1.68724,15.1313,15.4052,14.7209,34.008,15.0497,190.22,15.4224,13.3874,14.5407,15.165,14.001,100.0,60.0,22.2,1.07,0.798,18.8
0.4,0.498,0.102,2.49,0.51,1,1.69576,13.7486,13.4883,13.3833,34.6,14.5098,150.22,14.1278,15.0432,14.5407,14.2343,14.001,100.0,60.0,18.3,1.01,0.71,13.1
0.4,0.0,0.6,3.0,0.0,0,1.62,15.1313,11.7704,14.7209,24.0,11.6,198.0,12.109,13.3874,14.5407,11.8135,11.7428,110.0,10.0,4.26,1.03,0.57,2.5
0.05,0.7885,0.1615,2.49,0.51,1,1.69576,13.7486,14.8921,14.7209,72.6,14.5098,150.428,14.1278,13.3874,14.909,14.9847,14.001,100.0,60.0,24.8,1.1,0.696,18.3
0.2,0.664,0.136,2.49,0.51,1,1.60329,13.7486,15.159,14.7209,60.0,14.5098,80.0,14.1278,15.0432,14.5407,14.2343,14.001,110.0,60.0,17.11,0.95,0.5499,8.92
0.05,0.7885,0.1615,2.49,0.51,1,1.52658,13.7486,13.534,14.7209,34.6,13.615,150.22,14.1278,13.3874,14.5407,14.2343,14.001,100.0,60.0,16.98,0.78,0.54,7.15