Folder: PSCmachine_learning/TCP_ML/without_fill

Note: README.md
# PSCmachine_learning
perovskite solar cells and machine learning

File: encoded_PCE.csv
Cs,FA,MA,I,Br,structure,bandgap,substrate,ETL,ETL-2,ETLthickness,HTL,HTLthickness,electrode,depositionProcedure,depositionMethod,Anti-solvent,PrecursorSolvent,AnnealingTemperature,AnnealingTime,Jsc,Voc,FF,PCE
0.06,0.45,0.49,1.86,0.96,1,1.8,13.7486,15.5699,,,14.5098,,13.5675,13.3874,14.5407,,14.001,100.0,30.0,12.1,1.05,0.49,7.2
0.15,0.6375,0.2125,2.1,0.9,0,1.74,15.1313,15.4382,14.6411,,15.7676,,15.4224,15.0432,14.5407,,14.6717,100.0,30.0,18,1.11,0.719,14.4
0.15,0.7055,0.1445,2.1,0.9,1,1.7,,,,,,,,,,,,,,18.7,1.19,0.802,18.6
0.05,0.7125,0.2375,2.4,0.6,0,1.67,15.1313,15.4382,14.6411,,15.7676,,15.4224,15.0432,14.5407,,14.6717,100.0,30.0,18.8,1.11,0.714,14.9
0.05,0.8,0.15,2.25,0.75,1,1.65,,,,,,,,,,,,,,21.2,1.22,0.76,20.8
0.15,0.6375,0.2125,2.7,0.3,0,1.63,15.1313,15.4382,14.6411,,15.7676,,15.4224,15.0432,14.5407,,14.6717,100.0,30.0,21.2,1.06,0.722,16.2
0.05,0.7885,0.1615,2.49,0.51,1,1.6,13.7486,15.159,,0.04,15.1551,0.1,15.1551,15.0432,14.5407,14.2343,14.9947,100.0,60.0,22.68,1.14,0.76,19.61
0.175,0.75,0.075,2.64,0.36,1,1.57,13.7486,13.4883,13.5496,,14.5098,,14.1278,15.0432,14.5407,14.2343,14.001,100.0,20.0,21.88,1.124,0.75,18.45
0.05,0.7885,0.1615,2.79,0.21,1,1.55,13.9959,15.5699,,,14.1095,,13.9959,15.0432,14.5407,14.2343,14.001,150.0,15.0,19.7,0.9,0.57,10.7
0.05,0.95,0.0,3.05,0.0,1,,13.7486,15.159,,,14.5098,,14.1278,15.0432,14.5407,14.2343,14.001,100.0,60.0,25.45,1.09,0.727,20.1
0.05,0.7885,0.1615,2.49,0.51,1,,15.1313,15.5699,,30.0,14.5098,165.0,15.2714,13.3874,14.5407,14.2343,14.001,120.0,5.0,20.01,1.14,0.7694,17.48
0.16,0.8,0.04,1.5,1.5,0,,13.7486,11.945,14.6411,,15.7676,,15.2714,13.3874,14.5407,14.2343,14.001,100.0,15.0,17.64,1.22,0.73,15.7
0.05,0.7885,0.1615,2.49,0.51,1,,13.7486,15.159,,,13.4104,,15.2714,13.3874,14.5407,14.2343,14.001,110.0,60.0,18.9,0.79,0.434,6.2
0.05,0.7885,0.1615,1.5,1.5,1,,15.1313,15.5699,,,14.5098,,14.1278,15.0432,13.6124,14.2343,14.001,100.0,10.0,15.05,1.12,0.6427,10.81
0.0,0.4,0.6,3.0,0.0,1,,14.0365,14.0365,,,14.1095,,15.2714,15.0432,13.6124,14.2343,,,,20.6,1.05,0.536,11.6
0.0,0.95,0.05,2.85,0.15,1,,15.1313,15.5699,,,14.5098,,14.1278,15.0432,13.6124,14.5968,14.001,120.0,30.0,22,1.02,0.744,16.7
0.05,0.7885,0.1615,2.54,0.51,1,,13.7486,15.159,,,14.5098,,14.1278,15.0432,14.5407,14.2343,14.001,100.0,60.0,23.6,1.129,0.767,20.6
0.15,0.7055,0.1445,2.49,0.51,1,,13.7486,13.4883,13.5496,30.0,14.5098,,14.1278,15.0432,14.5407,14.2343,14.001,100.0,60.0,19.4,1.088,0.69,14.6
0.25,0.75,0.0,2.49,0.51,1,,13.7486,13.4883,13.5496,31.0,14.5098,,14.1278,15.0432,14.5407,14.2343,14.001,100.0,60.0,20.7,1.045,0.66,14.3
0.05,0.79,0.15,2.45,0.55,1,,15.1313,15.5699,,,14.5098,,14.1278,15.0432,14.5407,14.2343,14.001,100.0,60.0,22.83,1.1,0.7762,18.38
0.05,0.7885,0.1615,2.49,0.51,1,,15.1313,15.5699,,,14.5098,,14.1278,15.0432,14.5407,14.2343,14.001,100.0,60.0,26.04,1.005,0.709,18.58
0.05,0.81,0.14,2.55,0.45,1,,15.1313,15.2215,14.408,,14.5098,,14.1278,13.3874,14.5407,,14.001,120.0,10.0,24.1,1.16,0.72,20.12
0.05,0.745,0.255,2.235,0.765,1,,13.7486,13.4883,13.5496,,14.5098,,14.1278,13.3874,14.5407,,14.001,100.0,3.0,18.56,1.016,0.6116,11.54
0.05,0.87,0.08,2.76,0.24,0,,15.1313,15.922,15.6794,,15.0294,,15.2714,13.3874,14.5407,,14.001,100.0,30.0,21.82,0.87,0.783,14.8
0.05,0.87,0.08,2.76,0.24,0,,15.1313,15.922,15.6794,,15.7676,,15.2714,13.3874,14.5407,,14.9717,100.0,30.0,21.93,1.02,0.802,18.2
0.05,0.87,0.08,2.76,0.24,0,,15.1313,15.922,15.6794,,15.7676,,15.2714,13.3874,14.5407,,14.3732,100.0,30.0,20.1,0.99,0.68,13.6
0.05,0.8,0.15,2.55,0.45,1,,13.7486,15.159,,,14.5098,,14.1278,15.0432,14.5407,14.2343,14.001,100.0,60.0,22.595,1.065,0.73,17.6
0.0,0.83,0.17,2.49,0.51,1,,13.7486,13.4883,13.5496,,14.5098,,14.1278,15.0432,14.5407,14.2343,14.001,100.0,60.0,20.2,1.13,0.64,14.6
0.05,0.7885,0.1615,2.49,0.51,1,,13.7486,13.344,,,,,14.1278,13.3874,14.5407,14.2343,14.001,100.0,60.0,15.97,0.81,0.44,5.69
0.05,0.7885,0.1615,2.49,0.51,1,,13.7486,13.2542,,,,,14.1278,13.3874,14.5407,14.2343,14.001,100.0,60.0,14.52,0.84,0.41,5.0
0.1,0.75,0.15,2.55,0.45,1,,15.1313,14.489,,,14.5098,,15.2714,15.0432,14.5407,14.8646,14.001,100.0,60.0,18.31,1.182,0.7064,14.49
0.1,0.747,0.153,2.49,0.51,1,,13.7486,13.4883,13.5496,80.0,14.5098,250.0,14.1278,13.3874,14.5407,14.2343,14.001,100.0,60.0,22.3,1.09,0.73,17.8
0.2,0.664,0.136,2.49,0.51,1,,13.7486,15.159,,60.0,14.5098,80.0,14.1278,15.0432,14.5407,14.2343,14.001,110.0,60.0,17.11,0.95,0.5499,8.92
0.05,0.7885,0.1615,2.7,0.3,0,,15.1313,11.945,14.9335,25.0,15.0294,25.0,12.109,15.0432,14.5407,14.2343,14.001,100.0,10.0,22.2,1.023,0.82,17.7
0.1,0.747,0.153,2.49,0.51,1,,13.7486,13.4883,13.5496,,14.5098,,14.1278,,14.2821,,14.001,100.0,60.0,21.5,1.06,0.67,12.9
0.07,0.9,0.03,2.76,0.24,1,,13.7486,13.4883,13.5496,,15.247,,14.1278,15.0432,14.5407,14.2343,15.336,150.0,30.0,24.5,1.12,0.75,21.0
0.05,0.8075,0.1425,2.55,0.45,1,,13.7486,13.4883,13.5496,,14.1676,,14.1278,12.719,14.5407,14.2343,14.001,100.0,60.0,18.23,1.06,0.62,12.02
0.0,0.85,0.15,2.55,0.45,1,,13.7486,14.9977,,,14.5098,,14.1278,15.0432,14.5407,14.2343,14.001,100.0,60.0,21.3,1.14,0.74,18.4
0.05,0.54,0.41,2.94,0.06,1,,15.1313,15.5699,,,14.5098,,14.1278,15.0432,14.5407,,15.4557,150.0,15.0,24.23,1.126,0.8035,21.92
0.2,0.8,0.0,3.0,0.0,1,,15.1313,15.009,,,14.5098,,15.2714,15.0432,14.5407,14.2343,14.3622,130.0,5.0,19.56,1.1,0.6895,14.48
0.0,1.0,0.0,3.0,0.0,1,,15.1313,15.009,,,14.5098,,15.2714,15.0432,14.5407,14.2343,14.3622,150.0,5.0,18.82,1.11,0.6284,13.11
0.05,0.7885,0.1615,2.515,0.4845,0,,15.1313,15.4382,,,15.1929,,15.4224,13.3874,14.5407,15.165,14.001,100.0,60.0,22.5,1.11,0.799,19.9
0.1,0.747,0.153,2.49,0.51,1,,13.7486,13.4883,13.5496,,14.5098,,15.4224,15.0432,14.5407,14.2343,14.001,100.0,60.0,23.5,1.11,0.77,20.0
0.05,0.8,0.15,2.55,0.45,1,,13.7486,13.4883,,,14.5098,,14.1278,13.3874,14.5407,14.2343,14.9508,100.0,60.0,22.31,1.085,0.76,18.04
0.06,0.8,0.14,2.58,0.42,1,,13.7486,15.159,,,14.5098,,15.2714,15.0432,14.5407,14.2343,15.3321,100.0,30.0,23.53,1.09,0.816,20.97
0.065,0.6545,0.2805,2.67,0.33,1,,15.1313,15.5699,,,14.4499,,12.109,15.0432,14.5407,,14.001,150.0,15.0,22.36,1.02,0.6199,14.19
0.05,0.7885,0.1615,2.49,0.51,1,,13.7486,14.8921,,,14.5098,,14.1278,13.3874,14.909,14.6464,14.001,100.0,60.0,23.1,1.09,0.627,15.7
0.0,0.85,0.15,2.55,0.45,1,,15.1313,15.5699,,,14.5098,,14.1278,15.0432,14.5407,14.8832,14.001,130.0,30.0,21.74,1.16,0.6985,17.52
0.17,0.83,0.0,1.8,1.2,0,,15.1313,15.4382,14.6411,,14.4252,,15.2714,,14.5407,14.8642,14.001,100.0,30.0,16.7,1.13,0.79,14.0
1.0,0.0,0.0,1.0,2.0,1,,13.7486,13.4883,,,14.5098,,15.2714,15.0432,14.5407,,14.3622,225.0,10.0,11.5,1.26,0.73,10.6
0.0,0.15,0.85,3.0,0.0,1,,13.7486,13.4883,13.5496,,14.5098,,14.1278,13.3874,14.5407,11.8135,14.3622,100.0,60.0,19.9,0.994,0.7332,14.5
0.0,0.4,0.6,3.0,0.0,0,1.55,15.1313,15.4382,14.6411,,15.7676,,15.4224,13.3874,14.5407,11.8135,14.9847,100.0,60.0,23,1.03,0.77,18.3
0.2,0.0,0.8,3.0,0.0,0,1.57,15.1313,11.945,,,11.6,,12.109,13.3874,14.5407,11.8135,11.7428,110.0,10.0,6.76,1.04,0.65,4.58
0.1,0.9,0.0,3.0,0.0,1,1.55,13.7486,13.4883,,,14.5098,,15.2714,13.3874,14.5407,15.165,14.1985,150.0,5.0,23.5,1.06,0.663,16.5
0.2,0.8,0.0,3.0,0.0,1,1.56,13.7486,13.4883,13.5496,,14.5098,,14.1278,15.0432,14.5407,14.2343,14.001,100.0,10.0,21.5,1.017,0.701,15.69
0.0,1.0,0.0,1.5,1.5,1,1.91,13.7486,13.4883,13.5496,,14.5098,,14.1278,15.0432,14.5407,14.2343,14.001,100.0,30.0,7.1,1.06,0.5,3.7
0.0,0.83,0.17,2.0,1.0,1,1.68,13.7486,13.4883,13.5496,,14.5098,,14.1278,15.0432,14.5407,14.2343,14.001,100.0,30.0,19.1,1.18,0.65,14.7
0.0,0.67,0.33,2.5,0.5,1,1.64,13.7486,13.4883,13.5496,,14.5098,,14.1278,15.0432,14.5407,14.2343,14.001,100.0,30.0,23.7,1.14,0.76,20.7
0.0,0.5,0.5,3.0,0.0,1,1.55,13.7486,13.4883,13.5496,,14.5098,,14.1278,15.0432,14.5407,14.2343,14.001,100.0,30.0,19.6,0.96,0.68,12.8
0.0,0.5,0.5,0.0,3.0,1,2.28,13.7486,13.4883,13.5496,,14.5098,,14.1278,15.0432,14.5407,14.2343,14.001,100.0,30.0,7,1.39,0.73,7.1
0.0,0.33,0.67,0.5,2.5,1,2.14,13.7486,13.4883,13.5496,,14.5098,,14.1278,15.0432,14.5407,14.2343,14.001,100.0,30.0,4.4,0.99,0.66,2.9
0.0,0.17,0.83,1.0,2.0,1,1.99,13.7486,13.4883,13.5496,,14.5098,,14.1278,15.0432,14.5407,14.2343,14.001,100.0,30.0,5.1,0.94,0.74,3.5
0.0,0.0,1.0,1.5,1.5,1,1.87,13.7486,13.4883,13.5496,,14.5098,,14.1278,15.0432,14.5407,14.2343,14.001,100.0,30.0,6.6,1.12,1.17,8.6
0.1,0.9,0.0,3.0,0.0,1,1.53,13.7486,13.4883,,,14.5098,,15.2714,13.3874,14.5407,,14.001,185.0,30.0,22.25,0.69,0.45,6.82
0.0,0.85,0.15,2.55,0.45,1,1.6,15.1313,15.159,,,14.5098,,14.1278,13.3874,14.5407,14.2343,14.001,100.0,10.0,20.77,1.04,0.68,14.08
0.0,0.85,0.15,1.65,1.35,1,1.8,15.1313,15.159,,,14.5098,,14.1278,13.3874,14.5407,14.2343,14.001,100.0,10.0,17.27,1.12,0.59,11.59
0.0,0.65,0.35,1.95,1.05,1,1.73,15.1313,15.159,,,14.5098,,14.1278,13.3874,14.5407,14.2343,14.001,100.0,10.0,18.5,1.09,0.68,13.95
0.2,0.8,0.0,2.84,0.16,1,1.58,13.7486,13.4883,13.5496,,14.5098,,14.1278,15.0432,14.5407,14.2343,14.001,100.0,10.0,21.9,1.073,0.742,17.35
0.0,0.85,0.15,2.55,0.45,1,1.62,13.7486,13.4883,13.5496,,14.5098,,14.1278,13.3874,14.5407,14.2343,14.001,100.0,60.0,21.47,1.027,0.6916,15.24
0.0,0.0,1.0,2.4,0.6,1,1.72,15.1313,14.5379,,,14.191,,14.1278,14.3084,,,,,,17.3,1.104,0.819,15.6
0.0,0.65,0.35,3.0,0.0,0,1.52,15.1313,14.5379,14.7346,,15.0294,,15.2714,15.0432,14.5407,11.8135,14.001,100.0,10.0,19.43,0.98,0.58,11.04
0.0,0.3,0.7,0.6,2.4,0,1.69,15.1313,14.5379,14.7346,,15.0294,,15.2714,15.0432,14.5407,11.8135,14.001,100.0,10.0,17.34,1.11,0.78,15.01
0.25,0.75,0.0,2.4,0.6,0,1.68,15.1313,15.4382,14.6411,,15.7676,,15.2714,12.719,14.5407,,14.001,100.0,30.0,19.4,1.1,0.81,17.4
0.05,0.7885,0.1615,2.7,0.3,1,1.55,13.7486,15.5699,13.9051,,14.5098,,15.2714,12.719,12.7198,,14.001,100.0,60.0,18.3,0.9,0.58,8.9
0.05,0.7885,0.1615,2.7,0.3,1,1.58,13.7486,15.5699,13.9051,,14.5098,,15.2714,12.719,14.5407,,14.001,100.0,60.0,22.6,1.08,0.74,18.0
0.2,0.8,0.0,1.95,1.05,0,1.76,13.7486,11.945,14.6411,,13.4624,,15.2714,12.719,12.7198,,14.001,150.0,30.0,14.1,0.91,0.49,6.3
0.6,0.4,0.0,1.8,1.2,0,1.78,15.1313,11.945,14.6411,,15.7676,,15.2714,13.3874,14.5407,14.2343,14.001,130.0,10.0,14,1.12,0.774,12.1
0.15,0.85,0.0,0.9,2.1,1,2.0,15.1313,15.159,,,14.191,,14.1278,13.3874,14.5407,11.8135,14.3622,100.0,30.0,11.36,1.183,0.774,10.4